trial_index,arrow,sound_onset_psy,sound_onset_dev,arrow_onset_psy,arrow_onset_dev,response_key,rt_psy,rt_dev
1,none,11.092725700000301,20876.172614515002,,,NaN,NaN,NaN
2,none,12.592622500000289,20880.185479805,,,NaN,NaN,NaN
3,none,14.092711000001145,20881.684061035,,,NaN,NaN,NaN
4,none,15.592763900000136,20883.184157225,,,NaN,NaN,NaN
5,none,17.092925500001,20884.68450265,,,NaN,NaN,NaN
6,none,18.592863900001248,20886.18439567,,,NaN,NaN,NaN
7,right,20.092870199998288,20887.684503335,20.092870199998288,20887.684503335,NaN,NaN,NaN
8,none,21.592862800000148,20889.191205545,,,NaN,NaN,NaN
9,right,23.092912799998885,20890.684378915,23.092912799998885,20890.684378915,NaN,NaN,NaN
10,none,24.592925699998887,20892.18440152,,,NaN,NaN,NaN
11,right,26.092778800000815,20893.684316720002,26.092778800000815,20893.684316720002,NaN,NaN,NaN
12,none,27.592959800000244,20895.18415615,,,NaN,NaN,NaN
13,none,29.101599099998566,20896.700634785,,,NaN,NaN,NaN
14,right,31.084665200000018,20898.19370123,31.084665200000018,20898.19370123,NaN,NaN,NaN
15,none,32.58468400000129,20900.17628096,,,NaN,NaN,NaN
16,none,34.08460529999866,20901.67680542,,,NaN,NaN,NaN
17,none,35.584679399999004,20903.18469142,,,NaN,NaN,NaN
18,none,37.08462220000001,20904.676133065,,,NaN,NaN,NaN
19,right,38.58492079999996,20906.176320130002,38.58492079999996,20906.176320130002,NaN,NaN,NaN
20,none,40.084890999998606,20907.677509955,,,NaN,NaN,NaN
21,none,41.5932384000007,20909.195945165,,,NaN,NaN,NaN
22,none,43.0932341000007,20910.685034065,,,NaN,NaN,NaN
23,right,44.59327889999986,20912.189381390002,44.59327889999986,20912.189381390002,NaN,NaN,NaN
24,none,46.09306999999899,20913.68467934,,,NaN,NaN,NaN
25,right,47.59330050000062,20915.18442931,47.59330050000062,20915.18442931,NaN,NaN,NaN
26,none,49.093321899999864,20916.694455065,,,NaN,NaN,NaN
27,left,50.59342779999861,20918.184934210003,50.59342779999861,20918.184934210003,NaN,NaN,NaN
28,none,52.093552700000146,20919.68485523,,,NaN,NaN,NaN
29,none,53.59321450000061,20921.184973855,,,NaN,NaN,NaN
30,none,55.09328910000113,20922.684949625,,,NaN,NaN,NaN
31,left,56.59328860000096,20924.184649375,56.59328860000096,20924.184649375,NaN,NaN,NaN
32,none,58.093310699998256,20925.684693415,,,NaN,NaN,NaN
33,none,59.59334079999826,20927.18466215,,,NaN,NaN,NaN
34,none,61.09346580000056,20928.68464976,,,NaN,NaN,NaN
35,none,62.59333619999961,20930.184759670003,,,NaN,NaN,NaN
36,none,64.10173500000019,20931.702421925,,,NaN,NaN,NaN
37,none,65.60186959999919,20933.193116755003,,,NaN,NaN,NaN
38,none,67.10181939999893,20934.693348275003,,,NaN,NaN,NaN
39,right,68.6018112999991,20936.193106495,68.6018112999991,20936.193106495,NaN,NaN,NaN
40,none,70.10182949999944,20937.693191465,,,NaN,NaN,NaN
41,none,71.60170890000154,20939.193120905,,,NaN,NaN,NaN
42,right,73.10189499999979,20940.693140005,73.10189499999979,20940.693140005,NaN,NaN,NaN
43,none,74.60190810000131,20942.19337031,,,NaN,NaN,NaN
44,none,76.10191180000038,20943.69336815,,,NaN,NaN,NaN
45,right,77.60185940000156,20945.19336746,77.60185940000156,20945.19336746,NaN,NaN,NaN
46,none,79.10198830000081,20946.693142775002,,,NaN,NaN,NaN
47,left,80.6019985999992,20948.193258205003,80.6019985999992,20948.193258205003,NaN,NaN,NaN
48,none,82.1022309,20949.70186756,,,NaN,NaN,NaN
49,none,83.60198749999836,20951.19367214,,,NaN,NaN,NaN
50,none,85.10210119999829,20952.694059755002,,,NaN,NaN,NaN
51,none,86.60202529999879,20954.193361280002,,,NaN,NaN,NaN
52,none,88.10204959999828,20955.69997876,,,NaN,NaN,NaN
53,none,89.602096300001,20957.193372175003,,,NaN,NaN,NaN
54,none,91.10232769999857,20958.694067930002,,,NaN,NaN,NaN
55,none,92.60210899999947,20960.193675635,,,NaN,NaN,NaN
56,left,94.10208449999845,20961.693391480003,94.10208449999845,20961.693391480003,NaN,NaN,NaN
57,none,95.60215779999999,20963.19333088,,,NaN,NaN,NaN
58,none,97.10215120000066,20964.70015802,,,NaN,NaN,NaN
59,none,98.6105862000004,20966.209753375002,,,NaN,NaN,NaN
60,none,100.1106523999988,20967.701891195,,,NaN,NaN,NaN
61,none,101.63578309999866,20969.202201725002,,,NaN,NaN,NaN
62,right,103.13560190000135,20970.727033475003,103.13560190000135,20970.727033475003,NaN,NaN,NaN
63,none,104.63555629999973,20972.22711838,,,NaN,NaN,NaN
64,none,106.13564979999865,20973.726888625002,,,NaN,NaN,NaN
65,none,107.63568310000119,20975.235210320003,,,NaN,NaN,NaN
66,none,109.14402340000015,20976.746053540002,,,NaN,NaN,NaN
67,none,110.64402250000057,20978.2354987,,,NaN,NaN,NaN
68,left,112.1441479999994,20979.735455590002,112.1441479999994,20979.735455590002,NaN,NaN,NaN
69,none,113.64398150000125,20981.235740975,,,NaN,NaN,NaN
70,none,115.1443365999985,20982.735200455,,,NaN,NaN,NaN
71,right,116.64411019999898,20984.235654445,116.64411019999898,20984.235654445,NaN,NaN,NaN
72,none,118.1441511999983,20985.73543018,,,NaN,NaN,NaN
73,none,119.64415379999991,20987.235315925,,,NaN,NaN,NaN
74,none,121.14418010000009,20988.735366430003,,,NaN,NaN,NaN
75,none,122.64423909999823,20990.23673522,,,NaN,NaN,NaN
76,left,124.15275219999967,20991.75099001,124.15275219999967,20991.75099001,NaN,NaN,NaN
77,none,125.6609094000014,20993.259847615,,,NaN,NaN,NaN
78,none,127.16087830000106,20994.752363315,,,NaN,NaN,NaN
79,none,128.6608563000009,20996.25214508,,,NaN,NaN,NaN
80,none,130.16082800000004,20997.752008760002,,,NaN,NaN,NaN
81,none,131.6610722000005,20999.25826859,,,NaN,NaN,NaN
82,right,133.1693836000013,21000.7682797,133.1693836000013,21000.7682797,NaN,NaN,NaN
83,none,134.66934540000148,21002.26068713,,,NaN,NaN,NaN
84,left,136.16935999999987,21003.760683235003,136.16935999999987,21003.760683235003,NaN,NaN,NaN
85,none,137.66939609999827,21005.260511675002,,,NaN,NaN,NaN
86,none,139.16949540000132,21006.76054133,,,NaN,NaN,NaN
87,right,140.66944839999996,21008.271435725,140.66944839999996,21008.271435725,NaN,NaN,NaN
88,none,142.16941230000157,21009.760639765,,,NaN,NaN,NaN
89,left,143.67775619999884,21011.276524655,143.67775619999884,21011.276524655,NaN,NaN,NaN
90,none,145.17780370000037,21012.769177075003,,,NaN,NaN,NaN
91,left,146.6780652999987,21014.269053565,146.6780652999987,21014.269053565,NaN,NaN,NaN
92,none,148.17776049999884,21015.77614036,,,NaN,NaN,NaN
93,none,149.6861792999989,21017.28349763,,,NaN,NaN,NaN
94,none,151.1862070999996,21018.777519275,,,NaN,NaN,NaN
95,none,152.69466770000145,21020.29355875,,,NaN,NaN,NaN
96,none,154.1946304000012,21021.786106535,,,NaN,NaN,NaN
97,right,155.69469259999823,21023.285787905003,155.69469259999823,21023.285787905003,NaN,NaN,NaN
98,none,157.19464710000102,21024.785811370002,,,NaN,NaN,NaN
99,none,158.6947011000011,21026.28594433,,,NaN,NaN,NaN
100,left,160.20301140000083,21027.801297740003,160.20301140000083,21027.801297740003,NaN,NaN,NaN
101,none,161.703080700001,21029.294141690003,,,NaN,NaN,NaN
102,left,163.20306060000075,21030.794278445002,163.20306060000075,21030.794278445002,NaN,NaN,NaN
103,none,164.70310289999907,21032.294158465,,,NaN,NaN,NaN
104,right,166.20313689999966,21033.794456815,166.20313689999966,21033.794456815,NaN,NaN,NaN
105,none,167.70308830000067,21035.294279575002,,,NaN,NaN,NaN
106,left,169.20321369999874,21036.794192095,169.20321369999874,21036.794192095,NaN,NaN,NaN
107,none,170.7031605000011,21038.294250415,,,NaN,NaN,NaN
108,left,172.21154430000024,21039.81015379,172.21154430000024,21039.81015379,NaN,NaN,NaN
109,none,173.71991799999887,21041.320242035003,,,NaN,NaN,NaN
110,none,175.21986649999963,21042.811858385,,,NaN,NaN,NaN
111,none,176.71983399999954,21044.311914355003,,,NaN,NaN,NaN
112,right,178.21994849999828,21045.811003730003,178.21994849999828,21045.811003730003,NaN,NaN,NaN
113,none,179.71984789999988,21047.318548765,,,NaN,NaN,NaN
114,left,181.2199604999987,21048.811005895,181.2199604999987,21048.811005895,NaN,NaN,NaN
115,none,182.71997999999803,21050.311178705,,,NaN,NaN,NaN
116,left,184.21999909999795,21051.811180405002,184.21999909999795,21051.811180405002,NaN,NaN,NaN
117,none,185.72004430000015,21053.31120047,,,NaN,NaN,NaN
118,right,187.21986839999954,21054.818295175002,187.21986839999954,21054.818295175002,NaN,NaN,NaN
119,none,188.7199967000015,21056.315779250002,,,NaN,NaN,NaN
120,none,190.22013779999907,21057.82046699,,,NaN,NaN,NaN
121,right,191.72012189999805,21059.311381075,191.72012189999805,21059.311381075,NaN,NaN,NaN
122,none,193.2201438000011,21060.811402825002,,,NaN,NaN,NaN
123,left,194.72020519999933,21062.311236380003,194.72020519999933,21062.311236380003,NaN,NaN,NaN
124,none,196.22014510000008,21063.81177689,,,NaN,NaN,NaN
125,none,197.72842949999904,21065.328357100003,,,NaN,NaN,NaN
126,right,199.22858229999838,21066.819545450002,199.22858229999838,21066.819545450002,NaN,NaN,NaN
127,none,200.7369491999998,21068.334719860002,,,NaN,NaN,NaN
128,none,202.2369370999986,21069.82823974,,,NaN,NaN,NaN
129,none,203.73689309999827,21071.328043510002,,,NaN,NaN,NaN
130,none,205.23688350000157,21072.828140560003,,,NaN,NaN,NaN
131,left,206.73680220000097,21074.328150010002,206.73680220000097,21074.328150010002,NaN,NaN,NaN
132,none,208.2369432000014,21075.82790327,,,NaN,NaN,NaN
133,none,209.73702950000006,21077.327996710002,,,NaN,NaN,NaN
134,none,211.23700839999947,21078.828129425,,,NaN,NaN,NaN
135,none,212.73702499999854,21080.327964995002,,,NaN,NaN,NaN
136,none,214.2370837999988,21081.82802992,,,NaN,NaN,NaN
137,none,215.73712539999906,21083.328071005002,,,NaN,NaN,NaN
138,none,217.24546689999988,21084.843279055,,,NaN,NaN,NaN
139,right,218.7455091999982,21086.341752815002,218.7455091999982,21086.341752815002,NaN,NaN,NaN
140,none,220.2454918000003,21087.836589355,,,NaN,NaN,NaN
141,left,221.74562080000032,21089.336526455,221.74562080000032,21089.336526455,NaN,NaN,NaN
142,none,223.24554290000015,21090.836982520002,,,NaN,NaN,NaN
143,none,224.74561439999889,21092.34246722,,,NaN,NaN,NaN
144,none,226.2455130999988,21093.83665754,,,NaN,NaN,NaN
145,left,227.74559450000015,21095.336444185003,227.74559450000015,21095.336444185003,NaN,NaN,NaN
146,none,229.2455090000003,21096.8365423,,,NaN,NaN,NaN
147,right,230.74559139999837,21098.345312740003,230.74559139999837,21098.345312740003,NaN,NaN,NaN
148,none,232.24576859999797,21099.84508129,,,NaN,NaN,NaN
149,none,233.74569079999856,21101.33690497,,,NaN,NaN,NaN
150,none,235.24567960000059,21102.8368735,,,NaN,NaN,NaN
151,none,236.74574890000076,21104.3365486,,,NaN,NaN,NaN
152,left,238.24586030000137,21105.837161090003,238.24586030000137,21105.837161090003,NaN,NaN,NaN
153,none,239.74593589999859,21107.336980475,,,NaN,NaN,NaN
154,none,241.24600270000155,21108.836896445002,,,NaN,NaN,NaN
155,none,242.74577940000017,21110.342570335,,,NaN,NaN,NaN
156,left,244.2458196000007,21111.847269920003,244.2458196000007,21111.847269920003,NaN,NaN,NaN
157,none,245.7458458000001,21113.33695805,,,NaN,NaN,NaN
158,right,247.2458364999984,21114.836841635002,247.2458364999984,21114.836841635002,NaN,NaN,NaN
159,none,248.7458501000001,21116.336799955003,,,NaN,NaN,NaN
160,left,250.24581979999857,21117.837021785002,250.24581979999857,21117.837021785002,NaN,NaN,NaN
161,none,251.75416380000024,21119.352248095,,,NaN,NaN,NaN
162,none,253.25436769999942,21120.84534317,,,NaN,NaN,NaN
163,none,254.75428309999916,21122.345363660002,,,NaN,NaN,NaN
164,right,256.2541893999987,21123.845400725,256.2541893999987,21123.845400725,NaN,NaN,NaN
165,none,257.75427339999806,21125.354556175,,,NaN,NaN,NaN
166,none,259.25430119999874,21126.851813675003,,,NaN,NaN,NaN
167,none,260.75431050000043,21128.345282455,,,NaN,NaN,NaN
168,none,262.2543807000002,21129.845963725,,,NaN,NaN,NaN
169,none,263.7543896999996,21131.345325925,,,NaN,NaN,NaN
170,right,265.25443449999875,21132.84529972,265.25443449999875,21132.84529972,NaN,NaN,NaN
171,none,266.75442810000095,21134.35359496,,,NaN,NaN,NaN
172,none,268.25439650000044,21135.84527768,,,NaN,NaN,NaN
173,right,269.7544436999997,21137.345321965,269.7544436999997,21137.345321965,NaN,NaN,NaN
174,none,271.25448010000036,21138.846488315,,,NaN,NaN,NaN
175,right,272.7543509999996,21140.353241125,272.7543509999996,21140.353241125,NaN,NaN,NaN
176,none,274.2545476999985,21141.845439035,,,NaN,NaN,NaN
177,none,275.75456199999826,21143.345469455002,,,NaN,NaN,NaN
178,left,277.2545377999995,21144.84566183,277.2545377999995,21144.84566183,NaN,NaN,NaN
179,none,278.75458960000105,21146.351380660002,,,NaN,NaN,NaN
180,none,280.25458290000097,21147.85237955,,,NaN,NaN,NaN
181,left,281.7545270999981,21149.34552491,281.7545270999981,21149.34552491,NaN,NaN,NaN
182,none,283.25464329999886,21150.845407480003,,,NaN,NaN,NaN
183,left,284.75466759999836,21152.345497510003,284.75466759999836,21152.345497510003,NaN,NaN,NaN
184,none,286.25462530000004,21153.84547381,,,NaN,NaN,NaN
185,left,287.75476809999964,21155.35364969,287.75476809999964,21155.35364969,NaN,NaN,NaN
186,none,289.2630304999984,21156.862229455,,,NaN,NaN,NaN
187,none,290.7630864999992,21158.353925935,,,NaN,NaN,NaN
188,left,292.2630495000012,21159.854195285003,292.2630495000012,21159.854195285003,NaN,NaN,NaN
189,none,293.76338810000016,21161.35384993,,,NaN,NaN,NaN
190,none,295.2714113000002,21162.870063455,,,NaN,NaN,NaN
191,right,296.7799554999983,21164.376338765,296.7799554999983,21164.376338765,NaN,NaN,NaN
192,none,298.27976489999855,21165.87116162,,,NaN,NaN,NaN
193,none,299.7798976000013,21167.370618325,,,NaN,NaN,NaN
194,right,301.2798874,21168.877566235,301.2798874,21168.877566235,NaN,NaN,NaN
195,none,302.7882811999989,21170.384880365,,,NaN,NaN,NaN
196,left,304.29687999999805,21171.897580525,304.29687999999805,21171.897580525,NaN,NaN,NaN
197,none,305.7965843999991,21173.387915810003,,,NaN,NaN,NaN
198,none,307.2966101999991,21174.887507170002,,,NaN,NaN,NaN
199,none,308.7966892000004,21176.387357980002,,,NaN,NaN,NaN
200,none,310.29666240000006,21177.891228520002,,,NaN,NaN,NaN
201,none,311.7966664000014,21179.387577200003,,,NaN,NaN,NaN
202,left,313.29683360000126,21180.88764344,313.29683360000126,21180.88764344,NaN,NaN,NaN
203,none,314.7966258999986,21182.38822732,,,NaN,NaN,NaN
